Folder: XRF/Input_Files/XRF

Note: README.md
# XRF

Steps to running the app:
1) Install Python, pip, etc.
2) clone repo
3) pip install -r requirements.txt
4) python app.py

To build the app on a Mac:
1) Make sure the build and dist folders are deleted (rm -rf build dist)
2) Install py2app using "pip install py2app"
3) In the XRF directory, run "python setup.py py2app"
4) The new app file should be in the dist folder
5) If planning on distributing and need to zip, use "zip --symlinks -r app.zip app.app/"

File: Avaatech_fromIODP_LIMS_50kV.xlsx - Avaatech_fromIODP_LIMS_50kV_raw.csv
Expedition,Site,Hole,Core,Type,Section,A/W,Offset (mm),CSF-A (m),CSF-B (m),Test No.,TextID,Voltage (kV),Tube Current (mA),Live Time (s),Real Time (s),Down-Core Slit (mm),Cross-Core Slit (mm),Filter,Total Counts Per Second,Ca-Ka Area,Mn-Ka Area,Fe-Ka Area,Ni-Ka Area,Rb-Ka Area,Sr-Ka Area,Y -Ka Area,Zr-Ka Area,Ag-Ka Area,Ba-Ka Area,Instrument,Date of Measure,Time of Measure,Uploaded By,Date Uploaded,Comment
374,U1522,A,22,R,1,A,20,203.22,203.22,44323662,SHLF9310431,50,0.75,10,15,10,12,Cu,99057,663,190,9316,3400,1090,1295,280,2341,504921,5466,XRF 2,7/4/2018,11:38:52,LEVAY_B,8/3/18 0:14,~1mm spacers; with film; XRF 2
374,U1522,A,22,R,3,A,900,207.1,207.1,44323682,SHLF9310491,50,0.75,10,14,10,12,Cu,95705,507,148,6231,3279,817,1438,228,2004,510354,5994,XRF 2,7/4/2018,14:07:01,LEVAY_B,8/3/18 0:14,~1mm spacers; with film; XRF 2
374,U1522,A,23,R,4,A,100,217.11,217.11,44323732,SHLF9310751,50,0.75,10,15,10,12,Cu,96090,899,300,7723,3421,848,1433,234,2054,500048,5352,XRF 2,7/5/2018,8:52:34,LEVAY_B,8/3/18 0:14,~1mm spacers; with film; XRF 2
374,U1522,A,24,R,2,A,960,224.85,224.85,44323752,SHLF9310931,50,0.75,10,15,10,12,Cu,97360,464,178,6837,3426,875,1362,234,2046,505604,5974,XRF 2,7/5/2018,11:47:16,LEVAY_B,8/3/18 0:14,~1mm spacers; with film; XRF 2
374,U1522,A,27,R,1,A,820,252.02,252.02,44323782,SHLF9311451,50,0.75,10,14,10,12,Cu,89344,414,139,4847,3171,607,1153,176,1396,510269,3559,XRF 2,7/5/2018,15:16:06,LEVAY_B,8/3/18 0:15,~1mm spacers; with film; XRF 2
374,U1522,A,27,R,3,A,1420,255.62,255.62,44323802,SHLF9311511,50,0.75,10,15,10,12,Cu,101259,663,222,6758,3652,953,1513,193,2119,518986,6989,XRF 2,7/5/2018,18:07:54,LEVAY_B,8/3/18 0:15,~1mm spacers; with film; XRF 2
374,U1522,A,28,R,1,A,1120,261.92,261.92,44323832,SHLF9311761,50,0.75,10,15,10,12,Cu,98641,542,193,7125,3407,895,1379,244,1813,510458,5562,XRF 2,7/6/2018,11:50:30,LEVAY_B,8/3/18 0:15,~1mm spacers; with film; XRF 2
374,U1522,A,29,R,1,A,800,271.2,271.2,44323862,SHLF9312011,50,0.75,10,15,10,12,Cu,98138,544,99,6290,3540,963,1376,228,1910,514296,5695,XRF 2,7/6/2018,15:13:06,LEVAY_B,8/3/18 0:15,~1mm spacers; with film; XRF 2
374,U1522,A,29,R,3,A,1220,274.63,274.63,44323882,SHLF9312071,50,0.75,10,15,10,12,Cu,99697,554,206,6940,3603,1044,1299,362,2232,510146,5419,XRF 2,7/6/2018,17:50:48,LEVAY_B,8/3/18 0:15,~1mm spacers; with film; XRF 2
374,U1522,A,30,R,2,A,980,282.48,282.48,44323912,SHLF9312321,50,0.75,10,15,10,12,Cu,97349,541,120,5511,3459,902,1180,175,2020,509601,5307,XRF 2,7/7/2018,11:29:38,LEVAY_B,8/3/18 0:15,~1mm spacers; with film; XRF 2
374,U1522,A,31,R,1,A,120,289.72,289.72,44323942,SHLF9312541,50,0.75,10,15,10,12,Cu,98181,447,192,5304,3570,927,1384,240,1757,504416,4850,XRF 2,7/9/2018,10:01:13,LEVAY_B,8/3/18 0:16,~1mm spacers; with film; XRF 2
374,U1522,A,31,R,3,A,580,292.9,292.9,44323962,SHLF9312601,50,0.75,10,15,10,12,Cu,96423,544,174,5620,3302,924,1173,231,1847,508836,4536,XRF 2,7/9/2018,12:20:54,LEVAY_B,8/3/18 0:16,~1mm spacers; with film; XRF 2
374,U1522,A,33,R,2,A,140,310.31,310.31,44324002,SHLF9313071,50,0.75,10,15,10,12,Cu,97699,579,127,6228,3464,877,1503,288,2170,509835,5753,XRF 2,7/9/2018,15:58:27,LEVAY_B,8/3/18 0:16,~1mm spacers; with film; XRF 2
374,U1522,A,35,R,1,A,780,328.78,328.78,44324032,SHLF9313521,50,0.75,10,14,10,12,Cu,94712,464,134,5705,3297,892,1259,225,1910,502826,4976,XRF 2,7/10/2018,9:31:58,LEVAY_B,8/3/18 0:16,~1mm spacers; with film; XRF 2
374,U1522,A,37,R,1,A,1020,343.42,343.42,44324052,SHLF9313851,50,0.75,10,14,10,12,Cu,93799,515,162,6111,3231,810,1414,227,1777,506343,4783,XRF 2,7/10/2018,12:30:00,LEVAY_B,8/3/18 0:17,~1mm spacers; with film; XRF 2
374,U1522,A,38,R,1,A,700,347.9,347.9,44324082,SHLF9314091,50,0.75,10,14,10,12,Cu,93781,459,104,5953,3323,844,1292,188,1798,506889,4440,XRF 2,7/10/2018,16:05:07,LEVAY_B,8/3/18 0:17,~1mm spacers; with film; XRF 2
374,U1522,A,46,R,1,A,540,405.74,405.74,44324122,SHLF9315371,50,0.75,10,15,10,12,Cu,96328,529,121,7665,3377,1014,1409,298,2325,505962,5626,XRF 2,7/11/2018,9:09:57,LEVAY_B,8/3/18 0:17,~1mm spacers; with film; XRF 2
374,U1522,A,47,R,1,A,140,415.04,415.04,44324152,SHLF9315581,50,0.75,10,15,10,12,Cu,97855,628,315,8788,3523,1144,1453,333,2458,506967,6096,XRF 2,7/11/2018,11:59:14,LEVAY_B,8/3/18 0:17,~1mm spacers; with film; XRF 2
374,U1522,A,48,R,2,A,960,426.91,426.91,44324182,SHLF9315921,50,0.75,10,14,10,12,Cu,92695,559,194,7843,3179,799,1270,267,1956,505118,4469,XRF 2,7/11/2018,15:07:23,LEVAY_B,8/3/18 0:17,~1mm spacers; with film; XRF 2
374,U1522,A,48,R,5,A,760,430.76,430.76,44324212,SHLF9316011,50,0.75,10,15,10,12,Cu,97272,452,147,7833,3387,835,1450,185,2242,509525,4754,XRF 2,7/12/2018,9:16:18,LEVAY_B,8/3/18 0:18,~1mm spacers; with film; XRF 2
374,U1522,A,49,R,1,A,1340,435.44,435.44,44324232,SHLF9316231,50,0.75,10,15,10,12,Cu,98172,581,217,7455,3342,846,1500,298,2159,513021,4675,XRF 2,7/12/2018,11:49:59,LEVAY_B,8/3/18 0:18,~1mm spacers; with film; XRF 2
374,U1522,A,49,R,4,A,200,438.79,438.79,44324262,SHLF9316321,50,0.75,10,14,10,12,Cu,95356,539,220,7435,3260,777,1213,270,1953,510979,4298,XRF 2,7/12/2018,15:23:27,LEVAY_B,8/3/18 0:18,~1mm spacers; with film; XRF 2
374,U1522,A,49,R,CC,A,180,442.91,442.91,44324292,SHLF9316411,50,0.75,10,14,10,12,Cu,94700,466,179,7241,3386,789,1343,192,1747,504213,4288,XRF 2,7/13/2018,8:32:55,LEVAY_B,8/3/18 0:18,~1mm spacers; with film; XRF 2
374,U1522,A,50,R,3,A,30,446.66,446.66,44324322,SHLF9316591,50,0.75,10,14,10,12,Cu,92763,514,137,5805,3201,661,1106,186,1601,519831,3279,XRF 2,7/13/2018,12:28:50,LEVAY_B,8/3/18 0:18,~1mm spacers; with film; XRF 2
374,U1522,A,50,R,5,A,500,449.91,449.91,44324342,SHLF9316651,50,0.75,10,15,10,12,Cu,97682,510,201,6987,3280,814,1310,203,1968,514554,4749,XRF 2,7/13/2018,14:47:41,LEVAY_B,8/3/18 0:19,~1mm spacers; with film; XRF 2
374,U1522,A,51,R,5,A,970,460.05,460.05,44324392,SHLF9316961,50,0.75,10,15,10,12,Cu,98952,622,182,7232,3588,882,1610,241,1994,512779,4903,XRF 2,7/13/2018,17:54:24,LEVAY_B,8/3/18 0:19,~1mm spacers; with film; XRF 2
374,U1522,A,52,R,4,A,280,467.3,467.3,44324452,SHLF9317261,50,0.75,10,15,10,12,Cu,97338,741,258,8285,3374,827,1375,257,2131,509856,5006,XRF 2,7/14/2018,12:57:53,LEVAY_B,8/3/18 0:19,~1mm spacers; with film; XRF 2
374,U1522,A,53,R,3,A,380,475.8,475.8,44324502,SHLF9317621,50,0.75,10,15,10,12,Cu,97153,519,157,8329,3409,892,1297,248,2168,537759,4496,XRF 2,7/15/2018,15:51:54,LEVAY_B,8/3/18 0:20,~1mm spacers; with film; XRF 2
374,U1522,A,54,R,1,A,640,482.74,482.74,44324552,SHLF9317981,50,0.75,10,14,10,12,Cu,91887,1247,474,22620,3116,150,596,126,646,508301,1700,XRF 2,7/16/2018,10:38:12,LEVAY_B,8/3/18 0:20,~1mm spacers; with film; XRF 2
374,U1522,A,55,R,3,A,120,494.53,494.53,44324602,SHLF9318361,50,0.75,10,15,10,12,Cu,98977,583,132,8599,3474,970,1404,284,2008,517731,5223,XRF 2,7/16/2018,13:54:43,LEVAY_B,8/3/18 0:20,~1mm spacers; with film; XRF 2
374,U1522,A,57,R,2,A,1120,513.37,513.37,44324662,SHLF9319091,50,0.75,10,14,10,12,Cu,94553,607,177,7323,3272,1055,1191,300,2114,512914,4507,XRF 2,7/16/2018,17:41:15,LEVAY_B,8/3/18 0:20,~1mm spacers; with film; XRF 2
374,U1522,A,57,R,4,A,560,515.6,515.6,44324722,SHLF9319151,50,0.75,10,15,10,12,Cu,98189,658,247,8974,3514,995,1726,324,2440,524069,5410,XRF 2,7/17/2018,13:17:14,LEVAY_B,8/3/18 0:21,~1mm spacers; with film; XRF 2
374,U1522,A,59,R,1,A,240,530.34,530.34,44324772,SHLF9319891,50,0.75,10,14,10,12,Cu,95175,371,332,7698,3305,883,1282,229,2209,525293,4783,XRF 2,7/17/2018,16:53:01,LEVAY_B,8/3/18 0:21,~1mm spacers; with film; XRF 2
374,U1522,A,59,R,6,A,680,536.81,536.81,44324822,SHLF9320041,50,0.75,10,15,10,12,Cu,99997,677,211,10093,3565,1099,1397,254,2686,520818,5729,XRF 2,7/18/2018,10:26:46,LEVAY_B,8/3/18 0:21,~1mm spacers; with film; XRF 2
374,U1522,A,60,R,4,A,760,544.75,544.75,44324872,SHLF9320351,50,0.75,10,15,10,12,Cu,100088,512,240,9189,3624,1034,1479,279,2494,522701,5466,XRF 2,7/18/2018,14:17:42,LEVAY_B,8/3/18 0:22,~1mm spacers; with film; XRF 2
374,U1522,A,62,R,3,A,640,561.9,561.9,44324952,SHLF9330161,50,0.75,10,15,10,12,Cu,100050,656,160,7142,3653,1052,1549,340,2799,527283,5833,XRF 2,7/19/2018,10:22:25,LEVAY_B,8/3/18 0:22,~1mm spacers; with film; XRF 2
374,U1522,A,63,R,5,A,1180,575.17,575.17,44325002,SHLF9330651,50,0.75,10,15,10,12,Cu,98870,455,143,9309,3460,1207,1436,286,2525,523633,5490,XRF 2,7/19/2018,14:01:54,LEVAY_B,8/3/18 0:22,~1mm spacers; with film; XRF 2
374,U1522,A,65,R,1,A,360,587.66,587.66,44325072,SHLF9331131,50,0.75,10,15,10,12,Cu,99147,537,121,7553,3604,1347,1311,279,2491,526254,4876,XRF 2,7/20/2018,9:04:38,LEVAY_B,8/3/18 0:23,~1mm spacers; with film; XRF 2
374,U1522,A,65,R,6,A,120,594.44,594.44,44325122,SHLF9331281,50,0.75,10,15,10,12,Cu,100688,636,229,8634,3485,1037,1455,277,2567,533481,5275,XRF 2,7/20/2018,12:20:23,LEVAY_B,8/3/18 0:23,~1mm spacers; with film; XRF 2
374,U1522,A,67,R,2,A,1120,608.88,608.88,44325182,SHLF9331831,50,0.75,10,15,10,12,Cu,98176,469,217,7812,3391,965,1162,270,2118,530150,4958,XRF 2,7/20/2018,15:51:20,LEVAY_B,8/3/18 0:23,~1mm spacers; with film; XRF 2
374,U1522,A,68,R,3,A,320,618.69,618.69,44325252,SHLF9332251,50,0.75,10,15,10,12,Cu,103334,612,183,9823,3764,1144,1502,329,2602,542964,5721,XRF 2,7/20/2018,20:11:58,LEVAY_B,8/3/18 0:24,~1mm spacers; with film; XRF 2
374,U1522,A,70,R,1,A,1080,635.88,635.88,44325302,SHLF9332821,50,0.75,10,14,10,12,Cu,94942,678,179,9351,3396,980,1710,288,2376,498510,6561,XRF 2,7/21/2018,11:12:08,LEVAY_B,8/3/18 0:24,~1mm spacers; with film; XRF 2
374,U1522,A,71,R,2,A,120,645.74,645.74,44325362,SHLF9333291,50,0.75,10,14,10,12,Cu,95658,567,212,8552,3425,921,1490,224,2149,499428,5088,XRF 2,7/21/2018,14:52:40,LEVAY_B,8/3/18 0:25,~1mm spacers; with film; XRF 2
374,U1522,A,72,R,1,A,830,654.63,654.63,44325402,SHLF9333571,50,0.75,10,15,10,12,Cu,97002,741,150,9407,3385,1183,1367,303,2529,496322,5909,XRF 2,7/21/2018,17:53:49,LEVAY_B,8/3/18 0:25,~1mm spacers; with film; XRF 2
374,U1522,A,73,R,1,A,720,664.12,664.12,44325452,SHLF9333931,50,0.75,10,15,10,12,Cu,96857,648,94,6447,3509,1031,1442,291,2738,492279,5736,XRF 2,7/21/2018,21:17:27,LEVAY_B,8/3/18 0:25,~1mm spacers; with film; XRF 2
374,U1522,A,75,R,2,A,850,684.86,684.828,44325502,SHLF9334801,50,0.75,10,14,10,12,Cu,95864,728,268,8830,3433,1076,1305,282,2231,501501,5107,XRF 2,7/22/2018,14:02:14,LEVAY_B,8/3/18 0:25,~1mm spacers; with film; XRF 2
374,U1522,A,75,R,6,A,1240,691,690.84,44325542,SHLF9334921,50,0.75,10,15,10,12,Cu,96127,651,159,8437,3379,1035,1313,277,2313,498490,5115,XRF 2,7/22/2018,17:02:37,LEVAY_B,8/3/18 0:26,~1mm spacers; with film; XRF 2
374,U1522,A,76,R,3,A,560,695.51,695.51,44325582,SHLF9335211,50,0.75,10,13,10,12,Cu,79185,263,80,2678,2611,376,445,104,766,511245,1318,XRF 2,7/22/2018,19:25:31,LEVAY_B,8/3/18 0:26,~1mm spacers; with film; XRF 2